Folder: Thesis-Development/HiWi/Composite and stress recovery branch/Tsai-Wu - tensile test/thin tri/nasa_ex3_long.gid

File: tri_thru_s_xy.txt
-1141.54
-1142.8
1140.79
1137.64
1137.64
1134.5
-1145.33
-1146.59
0.0

File: tri_thru_s_yy.txt
-48.2685
-47.8677
51.2884
48.8773
48.8773
46.4662
-47.066
-46.6651
0.0