Folder: Thesis-Development/HiWi/Composite and stress recovery branch/Tsai-Wu - tensile test/thick quad/nasa_ex3_long.gid

Note: HiWi/Composite and stress recovery branch/Tsai-Wu - tensile test/thick quad/nasa_ex3_long.gid/ProjectParameters.json
{
    "problem_data"             : {
        "problem_name"    : "nasa_ex3_long",
        "model_part_name" : "Structure",
        "domain_size"     : 3,
        "parallel_type"   : "OpenMP",
        "time_step"       : 1.1,
        "start_time"      : 0.0,
        "end_time"        : 1.0,
        "echo_level"      : 0
    },
    "solver_settings"          : {
        "solver_type"                        : "Static",
        "echo_level"                         : 0,
        "solution_type"                      : "Static",
        "analysis_type"                      : "Non-Linear",
        "model_import_settings"              : {
            "input_type"       : "mdpa",
            "input_filename"   : "nasa_ex3_long",
            "input_file_label" : 0
        },
        "material_import_settings"           : {
            "materials_filename" : "StructuralMaterials.json"
        },
        "line_search"                        : false,
        "convergence_criterion"              : "Residual_criterion",
        "displacement_relative_tolerance"    : 0.0001,
        "displacement_absolute_tolerance"    : 1e-9,
        "residual_relative_tolerance"        : 0.0001,
        "residual_absolute_tolerance"        : 1e-9,
        "max_iteration"                      : 10,
        "problem_domain_sub_model_part_list" : ["Parts_surface"],
        "processes_sub_model_part_list"      : ["DISPLACEMENT_clamp","ROTATION_clamp","ROTATION_surface","SurfaceLoad3D_surface_load"],
        "rotation_dofs"                      : true
    },
    "constraints_process_list" : [{
        "python_module" : "assign_vector_variable_process",
        "kratos_module" : "KratosMultiphysics",
        "help"          : "This process fixes the selected components of a given vector variable",
        "process_name"  : "AssignVectorVariableProcess",
        "Parameters"    : {
            "mesh_id"         : 0,
            "model_part_name" : "DISPLACEMENT_clamp",
            "variable_name"   : "DISPLACEMENT",
            "value"           : [0.0,0.0,0.0],
            "interval"        : [0.0,"End"]
        }
    },{
        "python_module" : "assign_vector_variable_process",
        "kratos_module" : "KratosMultiphysics",
        "help"          : "This process fixes the selected components of a given vector variable",
        "process_name"  : "AssignVectorVariableProcess",
        "Parameters"    : {
            "mesh_id"         : 0,
            "model_part_name" : "ROTATION_clamp",
            "variable_name"   : "ROTATION",
            "value"           : [0.0,0.0,null],
            "interval"        : [0.0,"End"]
        }
    },{
        "python_module" : "assign_vector_variable_process",
        "kratos_module" : "KratosMultiphysics",
        "help"          : "This process fixes the selected components of a given vector variable",
        "process_name"  : "AssignVectorVariableProcess",
        "Parameters"    : {
            "mesh_id"         : 0,
            "model_pa

File: quad_thru_s_xy.txt
-1149.14
-1149.14
1150.46
1150.46
1150.46
1150.46
-1149.14
-1149.14
0.0