Folder: Thesis-Development/HiWi/Composite and stress recovery branch/Tsai-Wu - tensile test/thin quad/nasa_ex3_long.gid

Note: HiWi/Composite and stress recovery branch/Tsai-Wu - tensile test/thin quad/nasa_ex3_long.gid/StructuralMaterials.json
{
    "properties" : [{
        "model_part_name" : "Parts_surface",
        "properties_id"   : 1,
        "Material"        : {
            "constitutive_law" : {
                "name" : "KratosMultiphysics.StructuralMechanicsApplication.LinearElasticOrthotropic2DLaw"
            },
            "Variables"        : {
                "THICKNESS"     : 0.02,
                "DENSITY"       : 7850.0,
				"KratosMultiphysics.StructuralMechanicsApplication.SHELL_ORTHOTROPIC_LAYERS" : [[0.005,0,7850,20010000,1301000,0.3,1001000,1001000,1001000,80000,50000,4000,30000,6000,6000,6000],
																								[0.005,45,7850,20010000,1301000,0.3,1001000,1001000,1001000,80000,50000,4000,30000,6000,6000,6000],
																								[0.005,45,7850,20010000,1301000,0.3,1001000,1001000,1001000,80000,50000,4000,30000,6000,6000,6000],
																								[0.005,0,7850,20010000,1301000,0.3,1001000,1001000,1001000,80000,50000,4000,30000,6000,6000,6000]]
			},
            "Tables"           : {}
        }
    }]
}

File: quad_thru_s_xx.txt
44079.2
44079.2
5861.69
5861.69
5861.69
5861.69
44079.2
44079.2
0.0

File: strand_thru_tsai.txt
1.746
1.746
1.375
1.375
1.375
1.375
1.746
1.746
0.0

File: thru_result.txt
1.74182
1.74182
1.39556
1.39556
1.39556
1.39556
1.74182
1.74182
0.0